#lambda/nm	DC	C1
208.295	633	633.2
208.67	551.8	550.2
209.045	517.4	517.8
209.419	506	509.8
209.794	600.2	606.4
210.169	584.6	592.2
210.544	659.6	654.8
210.919	598.8	596.2
211.295	585.6	584.2
211.67	594.6	589.2
212.045	586.2	585.8
212.421	582.8	584.4
212.796	610.2	610.6
213.172	579	580.8
213.547	581.2	586.2
213.923	579.8	589.8
214.299	583.6	585
214.675	590.4	595.4
215.051	583.2	589.6
215.427	593.6	589.4
215.803	601.2	603.8
216.179	591.4	591.4
216.555	581.4	588.8
216.932	590.4	593.6
217.308	586.8	591.6
217.684	590.8	595
218.061	591.2	587
218.438	591.8	590.8
218.814	583	587
219.191	587.8	590
219.568	582	591.8
219.945	586.4	585.2
220.322	586.4	591
220.699	585	591.4
221.076	598.6	589
221.453	584.6	586.8
221.83	583	582.2
222.208	584	587.8
222.585	578.2	581
222.962	586	584
223.34	590.6	583.6
223.717	583.4	581.8
224.095	580.2	577.6
224.473	582.4	581.2
224.851	578	575.8
225.229	583	577
225.607	590.8	588.4
225.985	581.4	583
226.363	588	586.2
226.741	584	580.6
227.119	586.4	588.4
227.497	588.6	586.6
227.876	580	574.6
228.254	586.6	582.4
228.633	591.6	583.8
229.011	588.6	591.4
229.39	584.8	582
229.769	589.6	582.2
230.148	588	591
230.527	601	597
230.905	589.4	590.4
231.284	584.8	587.4
231.664	579.6	579.2
232.043	589.4	591.6
232.422	586.2	589
232.801	582.2	579.6
233.181	585.8	584.4
233.56	577.8	583.4
233.94	582.4	582.2
234.319	575	577.6
234.699	578.8	578.8
235.079	609.2	605.8
235.458	602.8	609.2
235.838	582.8	590
236.218	572.4	572
236.598	574	567.6
236.978	584.2	574.8
237.358	582.2	571.6
237.738	575.8	572.6
238.119	587.2	584
238.499	566.6	575.2
238.88	583.2	578
239.26	595.4	595.2
239.641	571.6	577.4
240.021	572.8	579.4
240.402	583.8	585.2
240.783	580.6	572.4
241.163	577	583.6
241.544	589	581.4
241.925	588.6	574.8
242.306	582.6	585.6
242.687	581	578.6
243.069	576.8	584.4
243.45	585.8	582.6
243.831	577.6	577.2
244.212	575.2	577
244.594	599.4	604.4
244.975	582	584.4
245.357	584.8	583.6
245.739	576.6	577.4
246.12	584	579.4
246.502	587.6	591.2
246.884	576.8	582.8
247.266	573	579.6
247.648	579.4	586.6
248.03	594.4	595.2
248.412	585.6	579.6
248.794	583.6	587.8
249.176	578.8	580.6
249.559	578.6	584
249.941	571.2	579.2
250.323	578.4	578.8
250.706	581	582.2
251.089	580	581.6
251.471	582.4	583
251.854	583.4	576.2
252.237	587	580.4
252.62	590.2	589.4
253.002	581.4	581.8
253.385	580.6	584.2
253.769	591	588.2
254.152	588.8	582.6
254.535	589.8	588
254.918	578	580.8
255.301	581.2	581.4
255.685	581.8	584.6
256.068	574.6	578.2
256.452	595	596.4
256.835	589	595.8
257.219	588.8	581.8
257.603	595.2	593.6
257.986	573.8	578.6
258.37	590.8	589.2
258.754	580	579
259.138	583.4	590
259.522	593	589
259.906	579.6	585.4
260.29	580.8	584
260.675	591.4	581.2
261.059	581.4	584
261.443	582.8	573
261.828	586.2	590.4
262.212	581.8	581.6
262.597	575.6	576
262.981	578.4	577.6
263.366	584.8	589
263.751	582.4	580
264.136	579	571.4
264.521	577.4	573.4
264.906	570.6	583
265.291	582.2	589.4
265.676	577.8	578.6
266.061	589.2	593
266.446	590	589.6
266.831	582	580.2
267.217	596.2	595.2
267.602	590	585.2
267.987	587.2	584.4
268.373	587.4	579.6
268.759	590	583.2
269.144	584.2	591.6
269.53	580.8	588
269.916	583.4	581.6
270.302	581.8	569.8
270.688	584.2	583.2
271.074	582.8	581.8
271.46	590.6	596.6
271.846	597.4	600.2
272.232	578.2	584.2
272.618	576.6	586.4
273.004	577.2	578
273.391	586.8	592.6
273.777	594.4	591.8
274.164	586	585.4
274.55	587.2	586
274.937	583.4	582
275.324	581	583.8
275.71	582.2	579.6
276.097	580.4	586.8
276.484	580.6	584.2
276.871	575.2	584.2
277.258	580	576.8
277.645	576.4	575.2
278.032	576.6	583.8
278.419	582	581.2
278.807	586.6	587.8
279.194	579.8	574.2
279.581	572.2	579.8
279.969	578.8	583.8
280.356	586.4	584
280.744	582.4	586.8
281.131	598.4	598.4
281.519	586.6	580.2
281.907	578.6	579.8
282.295	577.4	588.8
282.682	589.6	588.2
283.07	589.4	588
283.458	586.2	587.2
283.846	592.4	591.8
284.235	582.2	581.4
284.623	592.6	587
285.011	575.8	576.4
285.399	591.6	572.6
285.788	582	584.8
286.176	580.2	574.6
286.565	588	585.2
286.953	577.4	584
287.342	579	579.4
287.731	583.6	575.8
288.119	576.2	569.4
288.508	583	575
288.897	582.4	576.4
289.286	573.6	570.4
289.675	584.6	580.6
290.064	590.2	579.8
290.453	581.4	576.2
290.821	577.8	584.6
291.21	589.4	593.4
291.599	579	581.8
291.989	584.4	579.8
292.378	589.2	584.4
292.768	596.6	595.2
293.157	587.2	587.4
293.547	584.4	588.6
293.936	578.8	577.2
294.326	576.2	577.4
294.716	579.6	580.6
295.106	586.2	583
295.496	586.6	586
295.886	586	588.4
296.276	577.6	582
296.666	575.2	576.4
297.056	570.6	575.4
297.446	571.6	583
297.836	586.2	592.8
298.227	586	575.4
298.617	587	587.2
299.008	586	580.8
299.398	580.6	578.2
299.789	581.8	576.4
300.179	583.4	584.2
300.57	585.6	590.4
300.961	578	572.8
301.352	581.6	580.8
301.742	592.8	588
302.133	582.4	583.8
302.524	578.8	574.6
302.915	582.8	585.6
303.307	581.8	578.2
303.698	584.6	581.6
304.089	577.4	591.4
304.48	582.8	580
304.872	586	581.8
305.263	579.2	592.4
305.655	578.4	578.4
306.046	585.6	589
306.438	584	586
306.829	582	576.8
307.221	593.4	589
307.613	579.2	577.6
308.005	588.2	579.8
308.397	585	585.4
308.789	589	590
309.181	601.2	596
309.573	593.6	593.4
309.965	589.6	588
310.357	577	579.8
310.749	586.8	584
311.142	575.2	575.8
311.534	576.2	576.4
311.926	583.8	582.2
312.319	578.4	583.4
312.711	566.6	578
313.104	585.6	587.2
313.497	569.6	579.2
313.889	608	603.4
314.282	586.4	587.6
314.675	590.2	592.8
315.068	580.8	580.6
315.461	583.4	585
315.854	600.2	599.4
316.247	581.6	581.8
316.64	580.2	588.4
317.033	576.2	577.2
317.405	584.2	585
317.798	582.2	582.6
318.192	583.4	580.6
318.585	571	572.2
318.979	583.4	585
319.372	578.2	587.8
319.766	578.2	582
320.16	582.8	574.8
320.553	584.6	589.6
320.947	589.6	594.6
321.341	583.6	575
321.735	586	580.2
322.129	571	579.2
322.523	597.6	599.2
322.917	580.8	576.8
323.311	585.4	588
323.705	588	575
324.099	582.8	577
324.494	592	587.6
324.888	593.6	579.8
325.282	576.4	577.2
325.677	591	583.2
326.071	583.4	578.8
326.466	589.4	579.4
326.861	583.8	579.2
327.255	589.8	588.4
327.65	592.8	585.4
328.045	587	582.2
328.44	583.4	576.6
328.835	585.4	577.2
329.23	576.4	579.2
329.625	589.6	591.2
330.02	583	580.6
330.415	588.8	591.2
330.81	584.2	579.2
331.206	582	576.6
331.601	585.8	580
331.996	586.6	578.2
332.37	589.8	592.4
332.766	575.4	573
333.161	591.6	597
333.557	578.4	580
333.953	578	581.6
334.348	833.2	832.8
334.744	582	574.8
335.14	576.8	584
335.536	572.8	572.2
335.932	587.2	582.6
336.328	574.8	579.8
336.724	585.6	591.6
337.12	573.8	572.8
337.516	586.2	580.8
337.913	578.8	579.8
338.309	586.8	590.6
338.705	575	581.4
339.102	584.2	588.2
339.498	577	573.6
339.895	594.2	590.4
340.291	578.6	573.6
340.688	586	586.2
341.085	573.8	572
341.481	580.8	574.4
341.878	580	572.2
342.275	588.6	588.8
342.672	574.2	571.6
343.069	578.4	576.2
343.466	566	570
343.842	584.2	582
344.239	574.2	568
344.636	582.2	571
345.033	574.8	570.8
345.431	578.6	573.4
345.828	572.8	583.2
346.225	577	571.2
346.623	602.6	592
347.02	571.8	575.2
347.418	581.4	581.4
347.816	578	587.6
348.213	570	574
348.611	579.8	577.8
349.009	571.4	578.2
349.407	583.4	586.4
349.805	566.2	571.4
350.203	570	571.2
350.601	580.4	588.6
350.999	575.6	569.2
351.397	613.6	618.8
351.795	579.8	583.2
352.193	579.2	582.2
352.57	586.4	588.6
352.969	586.2	589.4
353.367	569.4	568.8
353.766	568.6	570.2
354.164	578	578.6
354.563	584.6	578.2
354.961	575	582.4
355.36	575.8	569.8
355.759	578.6	572
356.158	569.8	570.8
356.557	574.2	568.6
356.956	572.6	572.4
357.355	567.8	572
357.754	580.8	579.2
358.153	583.4	580
358.552	597	598
358.951	576.8	579.4
359.35	585.8	580.2
359.75	582.4	571.8
360.149	573.6	575
360.527	568.6	568
360.926	577.8	576.2
361.326	577.8	573.2
361.726	581.6	568.4
362.125	573.4	574
362.525	583.2	575
362.925	572.4	579
363.325	573	578.6
363.724	581.4	580.4
364.124	567.4	566.8
364.524	577.4	566.8
364.924	579.4	566.2
365.324	568.4	583.4
365.725	565.4	561.8
366.125	577	581.6
366.525	574.2	572.2
366.904	571.2	567.4
367.304	569	570
367.705	583.4	587.8
368.105	580.6	586.2
368.506	574.2	573.4
368.906	573.8	574.6
369.307	574	578.8
369.708	577.4	579.4
370.108	568.2	571
370.509	580.2	574.8
370.91	566.4	571
371.311	575.4	573.8
371.712	577.6	576.8
372.113	568.4	570.4
372.514	564.2	563
372.894	571.4	573.6
373.295	572.8	571
373.696	582	578.6
374.097	580.8	577.8
374.499	591.8	594.4
374.9	573.6	572.8
375.301	567.4	566.6
375.703	578.4	574.4
376.105	574.6	572
376.506	577.2	578
376.908	576.8	585
377.309	579.2	581
377.711	578.8	577.8
378.113	574.2	575
378.493	580.6	571
378.895	574.2	573.6
379.297	578.6	579.4
379.699	568.2	571.8
380.102	573.4	574.8
380.504	576	566.8
380.906	574	569.2
381.308	587.6	588.8
381.71	573.4	573.8
382.113	577.2	575.6
382.515	575.8	578.4
382.918	577.8	571.2
383.299	575	574.2
383.701	576.6	585
384.104	572.6	576.8
384.507	558	558.6
384.909	578.4	569.6
385.312	568.4	560.6
385.715	569	565.8
386.118	575.8	564.8
386.521	571.2	560.2
386.924	578.8	578.6
387.327	562.4	573.6
387.709	566.8	561.2
388.112	560.6	564.8
388.515	570.6	567.4
388.918	578.2	573.2
389.322	575.4	574.6
389.725	569.2	574.6
390.129	588.2	585
390.532	572.8	576
390.936	579.8	574.4
391.339	571.4	577
391.743	575.2	580.4
392.125	573	574.8
392.529	580.4	584.4
392.933	580.8	585.2
393.337	578.8	574.4
393.74	575.4	569
394.144	568.4	579.2
394.548	570.2	576.6
394.953	570.2	571.4
395.357	579.4	589.6
395.761	571.2	580.2
396.144	577	576.2
396.548	572.2	573.6
396.952	572	571.6
397.357	579.6	569.6
397.761	573.6	574.4
398.166	573.2	573.4
398.57	575.8	576.2
398.975	566.2	566.2
399.379	571.6	577.2
399.763	604.2	605.8
400.168	562.4	573.6
400.572	573.6	577.6
400.977	574	576.4
401.382	588	588
401.787	581.8	582.2
402.192	582.2	582.4
402.597	582.6	581
403.002	566	569.8
403.386	585.4	580
403.791	583.8	584.6
404.197	572	571
404.602	575	576
405.007	571.6	578.2
405.413	570.4	567.2
405.818	579.2	564.2
406.224	572.2	573.2
406.608	568.2	573.6
407.014	577.8	569
407.42	583	582.6
407.825	568.8	574.4
408.231	585.8	579.4
408.637	578.4	574.2
409.043	583.4	585.8
409.449	570.2	569.8
409.834	568.2	564.4
410.24	568.8	577.2
410.646	576.6	583
411.052	578.8	585.8
411.458	575	580.8
411.865	575	579
412.271	581.6	583.8
412.677	569.4	575.4
413.062	579.4	574.2
413.469	559	571
413.875	589.8	592.4
414.282	583.6	583.8
414.689	571.8	574.8
415.095	576.4	576.8
415.502	564.2	576.6
415.888	570.2	573
416.294	566.4	568.6
416.701	598.8	600.2
417.108	565.4	574.2
417.515	582.6	579.6
417.923	570.8	573
418.33	584.2	589
418.715	582.2	578.8
419.123	574.8	572
419.53	579.2	575.2
419.937	575	575.4
420.345	586.8	587
420.752	573	573
421.16	584.2	586
421.546	572.8	575.2
421.953	578.8	579
422.361	574	569.2
422.769	571	583.2
423.177	568.4	563
423.585	582.4	581.2
423.992	584.8	584.6
424.379	579	577
424.787	573.6	584.4
425.195	589.8	587.4
425.603	576.2	578.6
426.011	585.8	580.2
426.419	581.8	591.4
426.806	580.6	572.8
427.214	581.4	581.2
427.623	583.8	585.4
428.031	585.4	592.4
428.44	575.8	577.8
428.848	589	586.6
429.235	589.4	593.2
429.644	579.8	589.4
430.053	582.6	587.8
430.461	587.6	603.6
430.87	594.2	615.6
431.279	578.2	607.2
431.666	570.8	610
432.075	576.8	607.8
432.484	578	619.6
432.893	581	622.4
433.302	583.4	643.4
433.711	597.4	664.6
434.099	580.8	648.2
434.508	571.4	651
434.918	569	655.4
435.327	574.8	677.4
435.737	579.8	689.8
436.125	576.6	691.6
436.534	575.6	702.6
436.944	566.8	705.2
437.353	576.2	719.8
437.763	592.4	740.4
438.173	569.8	722.4
438.561	582.8	750
438.971	568.2	738
439.381	568.2	744.8
439.791	577.2	764.6
440.201	559.6	757.6
440.589	570	779.4
440.999	583.6	791.4
441.409	581.2	785.4
441.819	572.8	795.2
442.23	590.6	810.8
442.619	585.6	822.4
443.029	574.6	813.2
443.439	573.6	823.2
443.85	585.8	836.6
444.26	587.4	844.8
444.649	577.8	844.2
445.06	585.6	841.6
445.471	575.6	839.2
445.881	585.8	849.8
446.292	590.4	862.4
446.682	593.4	862.6
447.092	580.8	866
447.503	612.2	901.8
447.914	584.2	872.2
448.325	581.2	878.6
448.715	591.8	875.4
449.126	584.8	880.2
449.537	588.2	883.4
449.948	587.4	890
450.338	587.2	897.8
450.75	588	888.4
451.161	584.2	900.6
451.572	589.8	902.8
451.984	583.8	891.6
452.374	577.2	891.4
452.786	585.8	912
453.197	586.4	912.2
453.609	589.4	903.2
453.999	579.4	906.6
454.411	579	899.2
454.823	586	911.4
455.235	580.6	902.2
455.647	581.2	900.6
456.037	582	908.6
456.449	578.2	905.8
456.862	582.4	909.6
457.274	584.6	910.2
457.665	576.8	898.8
458.077	583.2	921.8
458.489	604	934.4
458.902	574.8	896.2
459.293	583.4	905.6
459.705	586.6	903.8
460.118	571.2	904.2
460.53	586.4	910
460.921	583.2	902.6
461.334	573.4	907.4
461.747	573.8	901.6
462.16	590	919.6
462.551	593.8	924.2
462.964	576.6	908.6
463.377	573.4	908.6
463.79	569	923.6
464.182	582.8	910.8
464.595	571.6	911
465.008	573	901.4
465.421	578.2	898.6
465.813	567.4	917.8
466.226	576.6	918
466.64	571.4	904.2
467.053	606.8	927.2
467.445	581.4	915
467.859	585.4	920.2
468.272	571.6	920.2
468.686	579.2	925
469.078	572.4	917.2
469.492	568.4	921
469.906	571.8	910.2
470.298	574.6	920.2
470.712	570	895.2
471.126	599.4	943.4
471.54	568.2	908.4
471.933	571.2	909.8
472.347	571	905.4
472.761	573.2	905.4
473.175	565.8	901.2
473.568	570.6	906.6
473.982	566.6	892.4
474.397	573.4	901.8
474.79	578	892
475.204	577.2	900.6
475.619	567.8	897.4
476.033	577.6	899.4
476.426	570	890.6
476.841	567.2	895.4
477.256	585	894.4
477.649	563.6	878.6
478.064	565.8	876
478.479	570.2	876.2
478.872	564.6	878.6
479.287	561.8	872
479.702	575	866.4
480.118	570.6	879.8
480.511	567.4	872.4
480.927	571.4	872.2
481.342	566.6	871.2
481.736	569.4	865
482.151	567.6	870.6
482.566	574.2	865.2
482.96	572.8	862.2
483.376	575.4	880
483.792	577.4	854
484.186	571	854.6
484.602	568.6	860.2
485.017	560.4	858.2
485.412	573.2	842.2
485.827	575.2	849.6
486.243	572.2	856.2
486.638	586.4	863.4
487.054	578.6	851.2
487.47	578.6	846.6
487.865	570	837.6
488.281	566.6	842
488.697	566.8	833.6
489.092	569.6	837.2
489.508	564.4	839.4
489.925	574.8	843.2
490.32	560.2	834
490.736	577.8	835
491.153	569	829.6
491.548	574	820.6
491.964	576.2	840.4
492.381	571	818.4
492.776	567.2	826.8
493.193	576.4	821.6
493.61	574	829
494.006	568.8	815.6
494.422	573	821.4
494.84	571.4	803
495.235	576.8	823.2
495.652	567.2	816.4
496.069	579.2	814.8
496.465	565.2	808.2
496.883	572.4	798.2
497.3	587.6	815.4
497.696	560.8	799
498.113	575	797.4
498.509	567.4	786
498.927	570.2	793.2
499.344	572.8	785.4
499.741	570.4	780.2
500.158	576.4	792.4
500.576	576.4	791
500.973	571	779.2
501.39	568.4	780.8
501.787	569.8	780
502.205	562.6	777.2
502.623	563.4	779.6
503.02	568.6	769.4
503.438	568.2	764.6
503.856	574.2	770
504.253	575	775.6
504.671	566.8	768.8
505.068	563	762.8
505.486	578.2	770.2
505.905	587	778.4
506.302	569.6	766.2
506.72	583.6	768.8
507.118	565.6	754.4
507.536	571.8	758.6
507.955	574.2	759.4
508.352	567.4	760.2
508.771	575.8	754.6
509.169	575.6	753.4
509.587	567.4	747
510.006	566.4	746.2
510.404	561	737.6
510.823	571.4	739.2
511.221	567.6	744
511.64	567.2	726.2
512.038	579.2	740.8
512.457	567.2	735.2
512.877	573	736.4
513.275	562	732.6
513.694	569.4	723.4
514.092	571.4	730.8
514.512	578.6	727.6
514.91	580	725.2
515.33	573	731
515.749	568.2	724.2
516.148	579.2	722.2
516.568	572.4	716.6
516.966	569.4	722.8
517.386	573	709.6
517.785	568.6	714.4
518.205	574	709.4
518.603	566	705.6
519.024	573.4	697.6
519.444	577.2	714.4
519.843	575.2	709.6
520.263	577.6	715.6
520.662	579.2	703.2
521.082	570.8	705.6
521.481	584	705.6
521.902	569.8	699
522.301	574.8	696
522.722	576.6	697.8
523.121	566.2	700.4
523.542	569.2	688
523.963	574.2	689.6
524.362	576	687.8
524.783	577.4	690.4
525.183	572.2	690.4
525.604	575.6	689.6
526.003	568.6	686.2
526.425	573.6	674.6
526.824	575.4	678.6
527.246	578.4	692.8
527.646	583.4	677.2
528.067	577.8	680.8
528.467	570	681
528.888	570.4	671.6
529.289	570.2	672
529.71	570.6	675.6
530.11	569	667.8
530.532	568.4	674
530.932	570.8	659.8
531.354	568.6	661.8
531.755	595.4	688.8
532.176	579.2	667.4
532.577	570.2	667.8
532.999	576	664.8
533.4	567	658.8
533.822	575.4	669.2
534.223	585.8	665.8
534.645	578.8	658
535.046	571	658.2
535.468	578.6	664.2
535.869	582.6	675.4
536.292	569.8	650.8
536.693	581.6	677.4
537.115	575	654
537.516	565.4	649.6
537.939	570.2	646.2
538.34	585.2	660.2
538.742	580.2	653.8
539.165	570.6	647.4
539.566	572.8	648
539.989	562.6	641.6
540.391	573.4	641.8
540.814	565	647
541.216	572.8	655.8
541.639	575.2	641.2
542.041	578.2	650
542.464	568.2	646.6
542.866	565	641.2
543.268	563.6	633.8
543.691	568.8	638.2
544.093	570.4	638.4
544.517	589.2	657.6
544.919	564.2	640.2
545.343	585.4	652.4
545.745	569.6	642.4
546.147	573.2	641.8
546.571	567.4	643.4
546.974	560.8	633.4
547.398	578.6	631
547.8	579.2	647.4
548.224	569.4	635
548.627	571.4	633.2
549.03	574.8	638.6
549.454	565.2	629.4
549.857	570.8	621
550.281	565	625.6
550.684	563	625.8
551.087	573.4	624.2
551.512	576.6	628
551.915	576.4	634
552.34	572	628.6
552.743	568.6	620.4
553.146	572.2	624.8
553.571	584.6	631
553.975	577.2	628.6
554.399	561.8	614.8
554.803	609	655.2
555.207	569.6	621
555.632	570.8	620.2
556.036	582.8	625
556.461	565.2	614
556.865	571.4	608.8
557.268	572.2	618.2
557.694	567.4	615.4
558.098	575.2	620.4
558.502	575.8	621.6
558.927	571	620.8
559.332	570.6	617.2
559.736	573.6	608.2
560.162	572.2	616.2
560.566	568.6	609.4
560.992	567.2	619.2
561.396	567.8	615.2
561.801	570.6	602
562.227	571.6	610.2
562.631	556.4	615.2
563.036	563.4	607.2
563.462	575.2	612.4
563.867	567.8	605.8
564.272	559.6	598.6
564.698	566.2	608.8
565.103	564.4	609
565.508	577.2	617.6
565.935	566	613.4
566.34	568.8	603.6
566.745	576.6	614.2
567.172	562.6	598.6
567.577	576.6	613.4
567.982	570.6	614.2
568.409	568.2	604.4
568.815	559.8	600.8
569.22	569.8	604.4
569.626	576.4	607.8
570.053	556.6	597.2
570.459	564.4	612.8
570.865	570	602.4
571.292	574	602.4
571.698	571	601.6
572.104	563.2	592.4
572.531	566.2	600.8
572.937	572.4	610.6
573.343	570.2	595.2
573.75	567.2	590.4
574.177	566.6	593.2
574.583	574.8	596.6
574.99	571.6	592.6
575.396	571.8	599.2
575.824	567.2	597.6
576.231	573.6	596
576.637	570.6	594.6
577.065	583.2	613.4
577.472	562.4	586.6
577.879	568.2	588.6
578.286	574.8	597.4
578.714	565.6	579.2
579.121	566	590.8
579.528	576	587
579.935	574	596.4
580.364	572	587.6
580.771	554	580.8
581.178	569.2	586.8
581.585	571.2	590
582.014	566	590.2
582.421	569.6	583.4
582.829	560	581
583.236	575.6	588
583.644	567.8	590.8
584.073	564.8	588.2
584.481	566.4	587.2
584.889	564	585.8
585.296	571.6	591.6
585.726	566.2	591.4
586.134	568	583.2
586.542	569.6	587.6
586.95	582.4	597.4
587.358	563.2	576.6
587.787	568.8	589.4
588.196	577.4	593.2
588.604	568.8	588.4
589.012	565.8	589.6
589.421	558.2	578.2
589.851	560.2	588
590.259	575.6	584.2
590.668	565.4	585.4
591.076	592	607.6
591.485	567.2	584.6
591.894	564.4	586
592.324	580.4	592.4
592.733	581.4	594
593.142	565.2	574.4
593.551	578.2	585.2
593.96	569.2	580
594.369	563.6	575.6
594.8	568.4	579.6
595.209	568.6	589
595.618	559.2	566.8
596.028	572.4	583
596.437	570.6	571.2
596.847	568.8	586
597.256	565.2	588
597.687	577	577.8
598.097	568.4	582.2
598.507	569.8	576.8
598.917	575.6	588
599.327	572.6	579.2
599.736	576.6	584.4
600.146	574.6	585.8
600.556	579.4	580.6
600.988	584	596.2
601.398	571	580.6
601.808	574.4	585.8
602.219	565.6	570.8
602.629	578.4	579.2
603.039	573.2	584
603.45	594.8	602.4
603.86	577	576
604.271	582.4	599.4
604.703	571.4	585.2
605.114	572.4	582.2
605.525	574.8	585
605.935	575.2	583.8
606.346	590.6	586.2
606.757	580.8	581.8
607.168	572.8	583.2
607.579	572.6	574.8
607.99	581.2	588.6
608.402	575.8	580.8
608.813	574.8	588.2
609.224	566	574
609.636	565.2	579.2
610.047	570.4	580.8
610.48	577.2	584.4
610.892	575	589.6
611.303	572.6	587.2
611.715	572.4	581.4
612.127	569.4	571.4
612.539	572.4	580.6
612.95	574.4	581
613.362	571.4	575.6
613.774	567.2	583
614.186	568.6	576.8
614.599	569.4	578.2
615.011	583.8	586.2
615.423	574.8	573.8
615.835	573.6	578.4
616.248	574.4	573.6
616.66	577.8	582.6
617.073	569.6	579.6
617.485	572.6	578.4
617.898	576	582.4
618.311	576.8	576.8
618.723	581.4	572.4
619.136	590.6	596.8
619.549	587.2	589
619.962	593.8	591.2
620.375	579.8	583.4
620.788	578.6	579.8
621.201	580.6	574.8
621.614	581.6	576.8
622.028	576.2	579.6
622.441	579.4	578.8
622.854	586.4	589.8
623.268	579.6	574.6
623.681	578.2	579.4
624.095	580.8	576.2
624.509	583.2	582.8
624.922	579	581.6
625.336	570.8	576.4
625.728	578.4	577.4
626.142	581.2	583.6
626.556	580	586.6
626.97	574.4	582.2
627.384	572.2	573.8
627.799	571.6	579.2
628.213	576	582
628.627	569.4	573.6
629.041	575.6	575.4
629.456	571	571.8
629.87	583.6	579.2
630.285	584.6	576.8
630.699	581.6	577.8
631.093	577.6	574.8
631.507	574.4	572
631.922	576.2	576.8
632.337	584.2	584.6
632.752	567	570.6
633.167	569	577.6
633.582	577.4	577.4
633.997	568.8	564.8
634.412	575	566.8
634.806	571	573.6
635.221	569.4	568.8
635.637	573.8	575
636.052	566.4	564.6
636.468	574.4	574.4
636.883	582.6	580.8
637.299	578	573.2
637.715	562	564.6
638.109	569.2	571.8
638.525	570	558.8
638.941	578	576.8
639.357	579.4	578.2
639.773	581.4	579.8
640.189	570.6	566.6
640.584	577.2	574
641	568.6	576.6
641.416	564.4	568.4
641.832	576.2	567.6
642.249	579.4	564
642.665	571.6	571.4
643.06	574.4	575.4
643.477	577.4	583
643.894	564	562.6
644.31	565.4	569.4
644.727	571.6	570.8
645.123	575.2	561.2
645.54	566.4	565.4
645.957	576.2	571.2
646.374	582.8	578.6
646.77	570.2	579
647.187	591	584.8
647.604	565.2	577
648.021	563.4	564
648.439	573	572.4
648.835	572.8	571.2
649.252	570	571.4
649.67	573.4	569.2
650.088	568	569.6
650.484	571	573.2
650.902	573.4	571.6
651.32	575	575.8
651.738	569.4	564.2
652.134	577.4	571.2
652.552	581.2	579
652.971	577	568.6
653.389	572.6	564
653.786	585	579.8
654.204	581.8	575.8
654.622	564.2	564.6
655.019	571.8	575
655.438	568	572
655.857	571	576.6
656.275	577.4	571
656.673	569.4	562.2
657.091	566.4	573.4
657.51	569	567.6
657.908	575.2	574.4
658.327	579.6	580.4
658.746	559.8	561.6
659.144	571	571.8
659.563	572.4	574.2
659.982	568	570
660.38	565	558.6
660.8	562.8	566.4
661.219	577.2	574
661.617	568.6	571
662.037	571.2	567.4
662.457	577.6	566.6
662.855	561.6	555.8
663.275	590.8	584
663.695	567.4	565.2
664.094	570.2	562.6
664.514	568.6	571.2
664.934	550.6	563.4
665.333	572.4	569.8
665.753	563.6	562.4
666.152	562	563.6
666.572	560.6	563.8
666.993	570.2	578.6
667.392	557	563.6
667.812	569.4	565.6
668.212	566.2	567.4
668.632	569.2	575.8
669.053	563.2	559.2
669.453	570.6	569.4
669.874	568.6	564.4
670.273	568	568
670.694	552.8	563
671.116	572.2	569
671.515	569.2	563.4
671.937	569.8	566.4
672.337	562.6	556.8
672.758	562.8	557.4
673.158	570.2	566.4
673.58	556.2	557.2
673.98	568.8	567.4
674.402	566.6	563
674.824	561	566.6
675.224	563.6	565.6
675.646	559.6	567.2
676.047	566.2	552.6
676.469	566.6	565
676.869	566.2	567.4
677.292	561.2	561.2
677.693	565.8	560.2
678.115	564.6	560
678.516	563.4	566
678.939	564.6	566
679.34	564.8	557.2
679.762	568.2	566.2
680.164	563.6	561.8
680.586	560	556.4
680.988	575.4	563
681.411	577.4	577.6
681.812	566	559
682.236	564.6	564.6
682.637	563.2	552.8
683.061	556.4	553.8
683.462	568.4	562
683.864	566.4	559.4
684.288	570	558.2
684.69	560.8	556
685.114	567	567
685.516	568.4	569.2
685.94	552.8	554.4
686.342	567	563
686.766	555.4	554.6
687.168	556.6	561.4
687.571	573.8	571
687.995	573.4	559.2
688.398	559.4	556.6
688.822	567	561
689.225	572.2	570.6
689.628	582	575.4
690.052	562.6	563
690.456	565.2	568.6
690.88	560.8	561.8
691.284	554.2	554.8
691.687	567.2	570.4
692.112	559.8	553.4
692.515	556.2	553.4
692.919	565.6	563.6
693.344	565.8	557
693.747	561.2	558.6
694.173	559.4	559.6
694.577	567.6	563.8
694.98	561	554.4
695.406	561	557.2
695.81	557.4	564.8
696.214	567.2	562.6
696.64	564.2	567
697.044	556.8	561.2
697.448	570.2	566.8
697.874	564.2	555.8
698.279	562	562.8
698.684	549.4	551.6
699.11	557.8	554
699.514	556.8	556.8
699.919	560.4	559.8
700.324	550.8	555.8
700.75	559.4	561
701.156	557.8	559.8
701.561	567.8	569.2
701.987	561.8	566
702.393	569.4	568.2
702.798	573.6	560
703.203	564.4	560.8
703.63	561.6	561.8
704.036	559.8	556.8
704.442	561	564.4
704.847	560.8	556.4
705.274	557	557.4
705.68	567	567.6
706.086	564.8	561.8
706.492	553.2	554.6
706.92	554.6	560.4
707.326	571	569
707.732	553.6	556
708.139	554.4	557.2
708.545	547.6	556.2
708.973	559.6	559.4
709.38	553.8	558.4
709.786	544.8	552.4
710.193	567.4	558
710.6	555.2	561.6
711.028	556	553.8
711.435	553.2	549.4
711.842	553.2	555.2
712.249	556.4	554.2
712.656	552.8	558
713.064	563	561.4
713.492	551.6	551.2
713.9	553.6	556.8
714.307	561.2	555.2
714.715	554.2	562.6
715.123	567	562
715.53	558	557
715.938	569	563.8
716.367	564.8	560.8
716.775	563.6	547.8
717.184	554.4	559.4
717.592	556.4	556.2
718	563	565.2
718.408	579.8	574.2
718.816	581.6	585.4
719.225	568	563
719.633	566.6	553.4
720.042	552.6	554.2
720.472	558.4	558.2
720.881	568.4	567.6
721.29	560.2	565
721.699	552.4	551
722.108	562.6	552.8
722.517	557.8	559.2
722.926	553.2	556.4
723.335	562.6	557.8
723.744	557	555
724.154	551.8	556.6
724.563	553.4	562.6
724.973	552.2	554.6
725.382	558.4	554
725.792	555	555
726.202	550.2	553.4
726.612	562	564.6
727.022	559.4	550.8
727.432	554.4	550.4
779.813	554.4	552.4
780.223	584.6	585.2
780.634	558.4	548.2
781.044	557.8	551
781.454	550.2	550
781.865	564.4	567
782.276	558.8	549.8
782.686	566.4	560
783.097	552.4	551.2
783.508	552.8	555.4
783.919	554.4	553.2
784.33	564.8	560
784.741	569	560.4
785.152	548.2	551.4
785.563	554.2	541.8
785.974	557.8	545.8
786.386	558.8	551
786.776	550.2	550
787.188	556	555.6
787.599	543	551.8
788.011	560	559.2
788.423	558.6	549.6
788.835	556.6	547.4
789.247	541.8	552.2
789.659	547.2	550.2
790.071	553.8	546.2
790.483	575.6	583.2
790.874	553.4	554.8
791.286	563.6	553.6
791.699	547	548.6
792.111	552.6	548.8
792.524	560.4	556
792.937	553.8	552.4
793.349	556	556
793.741	549	555.2
794.154	557.4	546.8
794.567	568	561.2
794.98	554.8	551.8
795.393	557.2	552.2
795.785	566.6	567.2
796.198	553.2	547.2
796.612	556.8	556.8
797.026	547.2	548.2
797.439	541	551.6
797.831	556.6	556.2
798.245	550.4	550.2
798.659	547.4	551.8
799.073	560	551
799.487	554.6	550.4
799.88	556.8	554.2
800.294	559	549.8
800.708	556	554.8
801.123	559	562
801.516	567.8	567.6
801.93	554.2	548.2
802.345	543.2	552.8
802.76	557.4	555.8
803.153	562.6	564.2
803.568	562.6	562
803.983	552.2	558.2
804.377	557.2	555.2
804.792	552.6	555
805.207	547	547.2
805.601	556.4	562.4
806.016	572	568.6
806.432	550.6	551.4
806.826	569.8	569.4
807.242	554.6	563.8
807.658	552.4	559.2
808.052	545	555
808.468	551.4	550.4
808.884	548.2	549.2
809.279	552	547.4
809.695	555	558.8
810.111	562.2	568
810.506	547.6	554.6
810.922	560.2	558.4
811.339	546.4	542.2
811.734	557.6	558.4
812.151	551.6	550.6
812.546	551	549.6
812.963	540.4	544.6
813.38	551.4	549.6
813.776	549.8	553.6
814.193	562	562.8
814.589	545	546.8
815.006	550.2	547.8
815.402	549	549
815.82	553.8	546
816.237	555.6	555.4
816.633	560	549.8
817.051	549.2	547.4
817.448	555.4	558
817.866	555.4	552.2
818.262	560.4	564
818.68	559	547.2
819.077	552.4	546.2
819.495	554	551.8
819.892	577.6	577.8
820.311	550.6	550
820.708	551.4	553.8
821.127	553.4	554.8
821.524	562.2	563.6
821.943	558.2	558.4
822.34	561.4	563.6
822.759	558.2	552.6
823.157	553.4	553
823.576	563.2	557.6
823.974	560.8	557.4
824.393	570.6	560.6
824.791	551.2	541.6
825.189	546.2	557
825.609	545	547.4
826.007	560	545.8
826.427	546.4	541.8
826.826	559.6	555.4
827.246	561.6	552.2
827.644	548.2	538.2
828.043	554.6	558
828.463	548.2	546.8
828.862	557.4	552.4
829.261	555.4	556.8
829.682	553.2	548.2
830.081	563.6	548.8
830.502	545	555.6
830.901	548.2	552.4
831.301	562	556.6
831.722	544.8	543.8
832.121	553.2	549.6
832.521	550.6	551.4
832.943	551	559
833.342	553.6	555.4
833.742	548	550.6
834.164	550.8	552.2
834.564	545.2	546.2
834.965	553.4	551.8
835.386	545.8	549.4
835.787	552	555
836.188	552.8	550.6
836.588	550.6	550.4
837.01	559.4	556.4
837.411	550.2	542.6
837.812	558.8	558.8
838.213	557	553.2
838.636	547.4	556.4
839.037	594.4	600.4
839.438	554.6	554.6
839.84	553	557.2
840.263	555	563.8
840.664	553.8	552.4
841.066	554.8	552.6
841.468	555.2	552.8
841.891	548.2	549.4
842.293	559.2	559
842.695	557	553.2
843.098	561	556.6
843.5	549.6	554
843.902	555.2	554.6
844.326	548.4	554.8
844.729	556.2	548
845.131	558.6	555.2
845.534	549	554.4
845.937	558.2	559.8
846.34	566.6	566.4
846.764	554.2	552.8
847.167	554.6	557
847.571	546.4	548
847.974	555.8	546.2
848.377	552.8	551.4
848.781	586.8	576.8
849.184	560.8	562.6
849.588	546.8	554.4
849.992	545.6	552.6
850.396	553.4	552.2
850.821	564	571.8
851.225	561.4	550.6
851.63	551.2	549.2
852.034	560.4	565
852.438	557.8	552.4
852.843	575	567.2
853.247	546.4	551.2
853.652	553	548
854.057	559.6	560.8
854.462	554.2	550.2
854.867	558.8	559.6
855.272	569.8	568.2
855.677	553.6	548.8
856.082	550	555.2
856.487	547.2	550
856.893	550.6	557
857.298	545.6	550.8
857.704	553.4	550.6
858.11	550.2	554.2
858.516	558.2	560.4
858.922	556	555
859.328	562.2	556.6
859.734	554.4	551
860.14	551	560.4
860.525	552.2	555.4
860.931	547	553.4
861.338	546.2	554.8
861.745	562.8	560.6
862.151	553.2	560.8
862.558	556.6	556
862.965	549.2	552.2
863.372	546.8	555.6
863.779	552	547.8
864.186	562.2	565.6
864.572	549.8	551.8
864.98	565.2	565.4
865.387	574.8	567.8
865.795	545.2	543.4
866.203	558.8	552.8
866.61	546	550.2
867.018	554.8	557.6
867.405	560	554.2
867.813	556	553.8
868.221	549.6	549
868.63	547.8	553.8
869.038	559.2	558.6
869.425	576.2	572.6
869.834	551.2	553
870.243	551.6	546.6
870.652	554.8	545.8
871.039	549.6	555.2
871.448	551	551.4
871.857	552	557
872.266	559.2	550.8
872.654	556	550.4
873.064	546.4	554.6
873.473	560.4	559.8
873.883	549.4	548
874.271	543.2	540.8
874.681	559.8	560.4
875.091	543.2	541.2
875.48	553.6	558.8
875.89	561.4	561.8
876.3	548.8	548.8
876.689	542.8	556
877.1	553.2	547.6
877.51	550.8	552
877.9	563.2	557.4
878.31	548.2	543
878.721	570	571.4
879.111	548	550.4
879.522	548.2	546.8
879.933	543.2	542
880.323	543.8	541
880.734	548.8	543.2
881.125	555.2	551
881.536	547.2	549.6
881.948	552.6	543.8
882.338	554.4	547.6
882.75	552.6	555
883.141	551.4	540.6
883.553	557	546.4
883.944	576.6	560.6
884.356	551.8	556.6
884.769	540.2	546.4
885.16	548	547.2
885.573	541.8	548
885.964	543.4	550.2
886.377	549.6	549.6
886.768	547.8	544.8
887.181	555	548.8
887.573	546.6	543.8
887.987	552.2	551.8
888.378	555.4	559.2
888.792	553	553.4
889.184	579	574.6
889.598	549.8	550.6
889.99	557.4	552
890.383	545.6	555
890.797	543.6	539.8
891.19	555.4	557.6
891.604	551.4	554
891.997	546.8	542.6
892.411	546.4	539
892.805	545.8	543.6
893.198	551.2	550.6
893.613	546.4	548.4
894.006	552	552.2
894.421	546.6	548.6
894.815	548.8	549.4
895.209	544.2	548.4
895.624	573.4	577.2
896.018	566	558
896.412	550	552.4
896.828	546.4	549
897.222	551	549.4
897.617	554.8	553
898.033	560	562.4
898.427	550.6	549.4
898.822	550.2	560.8
899.239	543.8	547.8
899.634	545	543.8
900.029	560.8	564.2
900.424	539.4	547.8
900.841	547.4	546.4
901.236	557	552.4
901.632	558.2	549.4
902.027	592.2	579
902.445	552.8	558
902.841	547.8	546.4
903.237	546.8	548.2
903.633	556.4	552
904.05	552.4	555.2
904.447	549.8	552.8
904.843	548.2	555
905.24	547.8	543.8
905.636	541.6	539.2
906.033	548.8	543
906.451	547.8	548.6
906.848	543.8	542.2
907.246	547.6	550.4
907.643	545.6	545.4
908.04	552	552.6
908.438	557.4	562.6
908.835	549.8	547.6
909.254	555	555.6
909.652	549.2	558.4
910.05	556.8	554.4
910.448	540.2	540.4
910.846	544.4	558.6
911.244	543.6	543.4
911.643	548.2	552
912.041	542.8	545.6
912.44	552	555.4
912.839	546.4	544.2
913.237	550.6	542.2
913.636	547.8	544
914.035	551.2	554.6
914.434	546.8	545.2
914.834	553.2	553.4
915.233	554.4	551.4
915.633	545.6	541.6
916.032	547	540.4
916.432	545.6	537
916.832	560	563.8
917.232	543.8	545.2
917.632	544.4	535.2
918.032	553.2	547.2
918.432	552.4	547.4
918.833	540.2	548.2
919.233	543.2	546.6
919.634	548	530
920.035	551.6	550.6
920.436	542.2	547.4
920.837	551.6	547
921.238	550.8	548.8
921.639	550	548.2
922.019	543.6	545.8
922.42	546.4	552.6
922.822	557	549.2
923.224	549	540.2
923.625	540.6	551.8
924.027	544.6	545.4
924.429	561	555.6
924.81	546.6	549.8
925.212	552.2	547.2
925.615	547.4	546.8
926.017	545.4	550.4
926.42	551	554.2
926.801	551.8	552.2
927.204	543.6	546
927.607	555	555
928.01	553.2	555.8
928.413	554.6	553.2
928.795	537.2	543.6
929.199	548.8	549.6
929.602	550	547.8
930.006	549.2	544.6
930.388	544.8	541.4
930.792	549.6	549.8
931.196	545.2	548.4
931.579	572.4	567.4
931.983	548.4	547.4
932.388	573.2	583.2
932.771	539	548.4
933.176	541.4	539.4
933.58	547.2	551.2
933.964	556.6	550.4
934.369	544.6	537.2
934.774	558.6	554.6
935.158	546.2	540.2
935.563	543.6	548.8
935.947	545.6	555.8
936.353	557	552
936.759	553.4	550.4
937.143	556	552.4
937.549	549.4	554.2
937.934	554.8	547.8
938.34	569.8	560.8
938.746	550	542
939.131	551.8	547.4
939.538	543.6	537.8
939.923	550.4	557.2
940.33	547.2	545
940.716	553.2	546.6
941.123	553	554.6
941.508	558	554.6
941.916	560.8	561.8
942.302	546.6	551.6
942.709	540.6	548.4
943.096	538.8	552.8
943.503	554.6	555.4
943.89	547.6	547.2
944.298	542.6	544.8
944.685	565	562.2
945.072	552	551.2
945.48	556	560.2
945.867	550	546.8
946.276	545	548.2
946.663	564.6	566.6
947.051	560.2	558
947.46	555.2	550.8
947.848	554.6	545
948.257	544.8	543.8
948.645	546.8	553
949.033	551.8	548
949.443	546.2	546
949.831	575	574.2
950.22	540.2	545.6
950.63	548.4	549.6
951.018	561.4	564.2
951.407	553.6	555
951.796	544	543.4
952.207	552.8	555.4
952.596	553.2	555.2
952.985	550.2	544.2
953.375	577.2	570.6
953.786	546.8	552.6
954.176	539.8	548.6
954.566	542.2	555
954.956	543.8	544
955.367	543.2	552
955.758	562.8	562.4
956.148	546	553.4
956.539	555.6	548.4
956.929	547.2	545.6
957.341	536.6	547.8
957.732	541	550.6
958.123	553.2	552.4
958.515	545.4	543.8
958.906	555.6	552.8
959.297	551	546
959.689	545.6	544.6
960.102	542.2	547
960.494	551.4	551.6
960.886	549.8	550.2
961.278	543.6	544
961.67	567.2	557.8
962.062	576.8	571.6
962.455	547.2	547.4
962.847	536.8	545
963.24	546.2	543
963.633	551	554.6
964.026	546.8	540.2
964.419	553.8	551
964.812	552.2	550.4
965.206	546.4	557.2
965.599	555.4	555.8
965.993	551.2	551.6
966.386	552.4	547.8
966.78	561	557.6
967.174	551.8	552.2
967.569	546	540.6
967.963	544.8	549.4
968.357	545.6	535.8
968.752	546.6	548.2
969.146	544.6	546.4
969.541	542.8	544.8
969.936	541.2	540.6
970.331	545.8	551.8
970.705	547.6	543.6
971.1	549.6	547.6
971.496	549.2	545.2
971.892	546.4	539
972.287	549	543.8
972.683	543	536.4
973.079	542.8	540.6
973.454	550.4	550.2
973.85	551	542.4
974.247	550	544
974.643	558.2	559.4
975.04	549.8	550.4
975.415	546	545.6
975.812	544	541.8
976.209	549.2	540.8
976.607	541.4	535
976.982	545.4	548
977.38	559.2	555.6
977.778	545.4	548.2
978.175	543.2	541.6
978.552	546.8	550.2
978.95	541.8	546.4
979.348	544	546.6
979.725	577.2	573.4
980.123	542.8	542.8
980.522	542.6	545.4
980.899	545.4	543
981.298	545.4	544.8
981.697	548.4	542.8
982.075	537.8	551.6
982.474	542.4	540.4
982.852	545.2	539.8
983.251	546	546.4
983.651	546.4	539.8
984.029	541.2	547
984.429	549.8	548
984.808	545.6	541.8
985.208	545	540.4
985.609	545	538.4
985.987	540	536.8
986.388	536.6	543.6
986.768	546.6	549
987.168	548.8	543.2
987.548	546.8	550.4
987.949	551.6	551.6
988.329	547.2	553.6
988.731	546	538.8
989.111	543.2	549
989.491	546.2	539
989.893	556.8	550.6
990.273	553.6	549.6
990.676	548.2	548.2
991.057	541.8	550.6
991.459	543.2	542.8
991.84	546	545.8
992.221	536	539
992.624	557.2	555.8
993.006	550.8	549
993.388	547.6	548.2
993.791	552.4	554.4
994.173	556.6	550.6
994.576	568.4	562
994.959	540.4	551
995.341	544.4	541.4
995.724	549.2	549.6
996.128	544	545.2
996.511	545.8	547.4
996.894	547.8	539.6
997.298	544.2	544.6
997.681	546.2	546.2
998.065	545.6	542.6
998.448	545.4	545.6
998.854	558	548.8
999.237	538.6	544.8
999.621	553	554
1000.01	553.4	554.2
1000.39	545.8	549.6
1000.8	545.4	541.2
1001.18	552	553.2
1001.56	550.2	549.2
1001.95	551.2	554
1002.33	543.4	548
1002.72	539.4	540.6
1003.13	543.4	540.8
1003.51	543.6	550.6
1003.9	536.6	544.6
1004.28	548.6	555.6
1004.67	538.6	544
1005.06	549	545.6
1005.44	560.2	566.4
1005.83	543.6	539.8
1006.21	550.4	542
1006.6	541.2	537.2
1006.99	551.2	548.8
1007.37	548.6	542.8
1007.76	551	546.4
1060.12	544.4	539
1060.51	547.8	537.2
1060.89	553.6	548.2
1061.28	546.2	549.4
1061.67	552.6	550.4
1062.06	552.2	544.8
1062.45	544.4	542.4
1062.83	545	537.8
1063.22	546.2	546.8
1063.61	567.8	576.4
1064	543.6	549
1064.39	549.8	542.2
1064.78	548	541.6
1065.14	559.6	545.6
1065.53	548.4	548.8
1065.92	550	544.8
1066.31	548.4	540.6
1066.7	552.4	545.4
1067.09	552.4	547.6
1067.46	558.2	544.6
1067.85	538.6	541.4
1068.24	539.2	544.4
1068.63	552.4	553.2
1069.02	545.6	536.8
1069.39	552.4	544.6
1069.78	543.2	539
1070.17	545.2	551.2
1070.57	537.2	547
1070.93	546.2	551.8
1071.33	545.4	548
1071.72	545.4	544
1072.11	545.4	541.8
1072.48	544.6	543.6
1072.87	543.8	546.8
1073.26	544.8	546.4
1073.64	543.4	535.2
1074.03	535.2	543.2
1074.4	541.8	542.8
1074.79	544.4	544.6
1075.19	548	547.2
1075.56	544	545.4
1075.95	547	542.2
1076.34	552	544.8
1076.72	539	543.4
1077.11	552	547.4
1077.48	554.8	554.8
1077.88	549.2	546.8
1078.25	546.8	542.2
1078.64	557	554
1079.02	545	548.6
1079.41	551.4	550.6
1079.78	543.8	552.2
1080.18	541.8	542.4
1080.55	584	587.2
1080.95	537.2	547.4
1081.32	553.4	539.4
1081.72	549	543.4
1082.09	550	550.2
1082.49	544.8	539.2
1082.86	548.2	548.2
1083.24	544.6	544.2
1083.63	543.4	542
1084.01	543.2	550.6
1084.38	546	545.6
1084.78	542.2	544
1085.16	542.8	549.8
1085.55	555.4	555.8
1085.93	552.4	551
1086.31	541.2	547.4
1086.7	562.4	570
1087.08	547.4	549.4
1087.46	542	549.2
1087.83	541.4	540.8
1088.23	550.4	550.8
1088.61	540.8	543.2
1088.99	548.4	543.6
1089.36	548.4	540.4
1089.76	552	546
1090.14	548	546
1090.52	546	547.6
1090.9	546	546.8
1091.27	553.6	556.6
1091.67	564.2	556.4
1092.05	550.6	548
1092.43	544	540.6
1092.81	547	549
1093.19	548	547.8
1093.57	541.4	545.8
1093.95	544.8	546.8
1094.35	552.6	548.8
1094.73	551.8	550
1095.11	534	538.6
1095.49	538.8	546.6
1095.87	546.6	541.8
1096.25	547	554.6
1096.63	548.6	546
1097.01	539.2	535
1097.39	538.4	550.6
1097.77	546.4	545.6
1098.15	542.4	549.2
1098.53	543.6	538.8
1098.91	539.8	543.2
1099.29	548.4	544.4
1099.68	551.8	561
1100.06	549.6	553
1100.44	549.8	541.2
1100.82	545.8	541.8
1101.18	553.6	550.2
1101.56	545	550
1101.95	545	545.8
1102.33	542.8	546
1102.71	554	541.6
1103.1	537.2	546.8
1103.48	537.2	540
1103.86	537.8	543.6
1104.22	550.4	546.8
1104.61	540.4	543.4
1104.99	542	539
1105.38	541.2	542.4
1105.76	550.4	547.4
1106.12	547	540.8
1106.51	569.8	567.8
1106.89	546.2	549.4
1107.26	541.8	551.4
1107.64	544.4	547.8
1108.03	537.6	542.8
1108.41	550.2	549.8
1108.78	547.2	546.2
1109.16	542.8	543.4
1109.55	550.8	547.2
1109.91	533.6	536
1110.3	533	538
1110.69	554.2	549.4
1111.05	549.2	541
1111.44	547.2	541.2
1111.8	547.4	545.4
1112.19	543.4	545
1112.58	546.4	546
1112.94	537.4	541.2
1113.33	544.4	540.2
1113.7	542.2	534.2
1114.09	539.8	539.8
1114.45	540	541
1114.84	543.6	544.6
1115.21	542	547.2
1115.6	537.4	543.2
1115.96	542.2	541.6
1116.35	552.2	541
1116.72	539.4	535.4
1117.11	552	545
1117.48	546.4	537.6
1117.85	545.2	537.2
1118.24	554.4	542.4
1118.6	540.2	540.8
1118.99	534.6	540.4
1119.36	541.8	543.4
1119.73	543.8	540.6
1120.12	546.2	542.8
1120.49	539.4	538.2
1120.86	549.8	546
1121.25	542.2	540
1121.62	539	537.4
1121.99	542	540.8
1122.38	549.2	548.4
1122.76	541.6	543.4
1123.13	540	544.6
1123.5	546	538.6
1123.89	548.4	546.8
1124.26	538.6	543
1124.63	536.4	535.4
1125	544.2	547.6
1125.4	540.8	539
1125.77	542	545.4
1126.14	539.4	534
1126.51	542	539.8
1126.88	541.8	539.6
1127.26	551.4	547.2
1127.63	535	536.8
1128.02	539.4	542.4
1128.4	544.6	530.6
1128.77	535.2	539.8
1129.14	550.4	542.2
1129.52	543.2	541.6
1129.89	545.2	546.8
1130.26	531.8	535.4
1130.64	536	532.2
1131.01	545.6	543.4
